targetX,cueOri,congr,corrAns,posner_type,block.thisRepN,block.thisTrialN,block.thisN,block.thisIndex,posner_task.thisRepN,posner_task.thisTrialN,posner_task.thisN,posner_task.thisIndex,fixation_1.started,fixation_1.stopped,fixation_2.started,fixation_2.stopped,cue.started,cue.stopped,target.started,target.stopped,correct_key_resp.keys,correct_key_resp.corr,correct_key_resp.rt,correct_key_resp.started,correct_key_resp.stopped,early_resp.keys,early_resp.started,early_resp.stopped,break_text.started,break_text.stopped,participant,session,date,expName,psychopyVersion,frameRate,
-0.5,0,1,left,2,0,0,0,0,0,0,0,0,6.120052199999918,6.626557600000524,7.243229999992764,None,6.559879899999942,7.259969699996873,7.759953999993741,None,left,1,0.38380460000189487,7.759953999993741,None,None,6.559879899999942,7.759953999993741,,,123123,001,2019_Nov_27_2033,posner,3.2.3,60.01086196663667,
-0.5,180,0,left,4,0,0,0,0,0,1,1,3,8.159888599999249,8.659924899999169,9.343253200000618,None,8.643370999998297,9.343253200000618,9.843263199989451,None,left,1,0.4170882000034908,9.843263199989451,None,None,8.643370999998297,9.843263199989451,,,123123,001,2019_Nov_27_2033,posner,3.2.3,60.01086196663667,
0.5,180,1,right,6,0,0,0,0,0,2,2,4,10.276617800001986,10.77676259999862,11.46012809999229,None,10.760017399996286,11.46012809999229,11.959953400000813,None,right,1,0.2838503000093624,11.959953400000813,None,None,10.760017399996286,11.959953400000813,,,123123,001,2019_Nov_27_2033,posner,3.2.3,60.01086196663667,
-0.5,0,1,left,2,0,0,0,0,0,3,3,2,12.260046900002635,12.760054200000013,13.44362479999836,None,12.743608299992047,13.44362479999836,13.943339499994181,None,left,1,0.21722369999042712,13.943339499994181,None,None,12.743608299992047,13.943339499994181,,,123123,001,2019_Nov_27_2033,posner,3.2.3,60.01086196663667,
0.5,180,1,right,6,0,0,0,0,0,4,4,5,14.176794999992126,14.676748700003373,15.360021599990432,None,14.660016499998164,15.360021599990432,15.860244399998919,None,right,1,0.2342213000083575,15.860244399998919,None,None,14.660016499998164,15.860244399998919,,,123123,001,2019_Nov_27_2033,posner,3.2.3,60.01086196663667,
0.5,0,0,right,8,0,0,0,0,0,5,5,7,16.109947799996007,16.610221800001455,17.293530800001463,None,16.59357669999008,17.293530800001463,17.793504499990377,None,right,1,0.3007978999958141,17.793504499990377,None,None,16.59357669999008,17.793504499990377,,,123123,001,2019_Nov_27_2033,posner,3.2.3,60.01086196663667,
0.5,180,1,right,6,0,0,0,0,0,6,6,6,18.11006159998942,18.610311600001296,19.29361359999166,None,18.59331509999174,19.29361359999166,19.793520499995793,None,right,1,0.3005624999932479,19.793520499995793,None,None,18.59331509999174,19.793520499995793,,,123123,001,2019_Nov_27_2033,posner,3.2.3,60.01086196663667,
-0.5,0,1,left,2,0,0,0,0,0,7,7,1,20.109988199998043,20.6102164999902,21.293817899990245,None,20.593704200000502,21.293817899990245,21.79337489999307,None,left,1,0.2505270000110613,21.79337489999307,None,None,20.593704200000502,21.79337489999307,,,123123,001,2019_Nov_27_2033,posner,3.2.3,60.01086196663667,
,,,,,0,0,0,0,,,,,,,,,,,,,,,,,,,,,22.060227099995245,None,123123,001,2019_Nov_27_2033,posner,3.2.3,60.01086196663667,
-0.5,180,0,left,4,1,0,1,0,0,0,0,3,32.211303999996744,32.72667019999062,33.39348189999873,None,32.69335649999266,33.39348189999873,33.89369299999089,None,left,1,0.4006840999936685,33.89369299999089,None,None,32.69335649999266,33.89369299999089,,,123123,001,2019_Nov_27_2033,posner,3.2.3,60.01086196663667,
-0.5,0,1,left,2,1,0,1,0,0,1,1,1,34.31000669999048,34.81007009999303,35.493431700000656,None,34.79363960000046,35.493431700000656,35.99345500000345,None,left,1,0.2842475000070408,35.99345500000345,None,None,34.79363960000046,35.99345500000345,,,123123,001,2019_Nov_27_2033,posner,3.2.3,60.01086196663667,
0.5,0,0,right,8,1,0,1,0,0,2,2,7,36.293418999994174,36.79350899999554,37.476739299992914,None,36.77670760000183,37.476739299992914,37.97682919999352,None,right,1,0.3009943000070052,37.97682919999352,None,None,36.77670760000183,37.97682919999352,,,123123,001,2019_Nov_27_2033,posner,3.2.3,60.01086196663667,
-0.5,0,1,left,2,1,0,1,0,0,3,3,2,38.29346249999071,38.793464399990626,39.47679220000282,None,38.77674099999422,39.47679220000282,39.97690619999776,None,left,1,0.267119800002547,39.97690619999776,None,None,38.77674099999422,39.97690619999776,,,123123,001,2019_Nov_27_2033,posner,3.2.3,60.01086196663667,
0.5,180,1,right,6,1,0,1,0,0,4,4,6,40.2600875999924,40.76008599999477,41.443460499998764,None,40.743682100001024,41.443460499998764,41.94366859999718,None,right,1,0.21667599999636877,41.94366859999718,None,None,40.743682100001024,41.94366859999718,,,123123,001,2019_Nov_27_2033,posner,3.2.3,60.01086196663667,
0.5,180,1,right,6,1,0,1,0,0,5,5,4,42.176794099999825,42.67673680000007,43.36005229999137,None,42.66029020000133,43.36005229999137,43.86014969999087,None,right,1,0.3006220000097528,43.86014969999087,None,None,42.66029020000133,43.86014969999087,,,123123,001,2019_Nov_27_2033,posner,3.2.3,60.01086196663667,
0.5,180,1,right,6,1,0,1,0,0,6,6,5,44.17676550000033,44.676832600001944,45.3602905000007,None,44.6602736999921,45.3602905000007,45.8600363000005,None,left,0,0.21717600000556558,45.8600363000005,None,None,44.6602736999921,45.8600363000005,,,123123,001,2019_Nov_27_2033,posner,3.2.3,60.01086196663667,
-0.5,0,1,left,2,1,0,1,0,0,7,7,0,46.093501399998786,46.59345439999015,47.276973599990015,None,46.576937999998336,47.276973599990015,47.776767499992275,None,left,1,0.3185559999983525,47.776767499992275,None,None,46.576937999998336,47.776767499992275,,,123123,001,2019_Nov_27_2033,posner,3.2.3,60.01086196663667,
,,,,,1,0,1,0,,,,,,,,,,,,,,,,,,,,,48.11009390000254,None,123123,001,2019_Nov_27_2033,posner,3.2.3,60.01086196663667,
0.5,180,1,right,6,2,0,2,0,0,0,0,4,58.243648099989514,58.74360020000313,59.42692329999409,None,58.726941799992346,59.42692329999409,59.9269026999973,None,right,1,0.2335804000031203,59.9269026999973,None,None,58.726941799992346,59.9269026999973,,,123123,001,2019_Nov_27_2033,posner,3.2.3,60.01086196663667,
0.5,0,0,right,8,2,0,2,0,0,1,1,7,60.17671139999584,60.67690819999552,61.360310199990636,None,60.660315399989486,61.360310199990636,61.86012279998977,None,right,1,0.43421829999715555,61.86012279998977,None,None,60.660315399989486,61.86012279998977,,,123123,001,2019_Nov_27_2033,posner,3.2.3,60.01086196663667,
0.5,180,1,right,6,2,0,2,0,0,2,2,5,62.31014079999295,62.810283300001174,63.49353639999754,None,62.79365209999378,63.49353639999754,63.99350179999601,None,right,1,0.3339181000046665,63.99350179999601,None,None,62.79365209999378,63.99350179999601,,,123123,001,2019_Nov_27_2033,posner,3.2.3,60.01086196663667,
0.5,180,1,right,6,2,0,2,0,0,3,3,6,64.34344060000149,64.84363730000041,65.52676529999007,None,64.82696219999343,65.52676529999007,66.02679340000032,None,right,1,0.3510913000063738,66.02679340000032,None,None,64.82696219999343,66.02679340000032,,,123123,001,2019_Nov_27_2033,posner,3.2.3,60.01086196663667,
-0.5,0,1,left,2,2,0,2,0,0,4,4,1,66.39349679999577,66.89367759999004,67.5769658999925,None,66.87753869999142,67.5769658999925,68.07687629999418,None,left,1,0.25207360000058543,68.07687629999418,None,None,66.87753869999142,68.07687629999418,,,123123,001,2019_Nov_27_2033,posner,3.2.3,60.01086196663667,
-0.5,180,0,left,4,2,0,2,0,0,5,5,3,68.34359279999626,68.84347239999624,69.52682719999575,None,68.82678760000272,69.52682719999575,70.02680720000353,None,left,1,0.3008226000092691,70.02680720000353,None,None,68.82678760000272,70.02680720000353,,,123123,001,2019_Nov_27_2033,posner,3.2.3,60.01086196663667,
-0.5,0,1,left,2,2,0,2,0,0,6,6,2,70.34360059999744,70.84344929999497,71.5267809999932,None,70.82676969999739,71.5267809999932,72.02680130000226,None,left,1,0.2848472999903606,72.02680130000226,None,None,70.82676969999739,72.02680130000226,,,123123,001,2019_Nov_27_2033,posner,3.2.3,60.01086196663667,
-0.5,0,1,left,2,2,0,2,0,0,7,7,0,72.32697519999056,72.8268773000018,73.51034749999235,None,72.81033249999746,73.51034749999235,74.01016969999182,None,left,1,0.2503186999965692,74.01016969999182,None,None,72.81033249999746,74.01016969999182,,,123123,001,2019_Nov_27_2033,posner,3.2.3,60.01086196663667,
,,,,,2,0,2,0,,,,,,,,,,,,,,,,,,,,,74.27694029999839,None,123123,001,2019_Nov_27_2033,posner,3.2.3,60.01086196663667,
